Folder: xasalign/examples

Note: README.rst
========
XASAlign
========


.. image:: https://img.shields.io/pypi/v/xasalign.svg
        :target: https://pypi.python.org/pypi/xasalign

.. image:: https://img.shields.io/travis/Ameyanagi/xasalign.svg
        :target: https://travis-ci.com/Ameyanagi/xasalign

.. image:: https://readthedocs.org/projects/xasalign/badge/?version=latest
        :target: https://xasalign.readthedocs.io/en/latest/?version=latest
        :alt: Documentation Status




A package to align XAS spectra


* Free software: MIT license
* Documentation: https://xasalign.readthedocs.io.


Features
--------

* TODO

Credits
-------

This package was created with Cookiecutter_ and the `audreyr/cookiecutter-pypackage`_ project template.

.. _Cookiecutter: https://github.com/audreyr/cookiecutter
.. _`audreyr/cookiecutter-pypackage`: https://github.com/audreyr/cookiecutter-pypackage

File: Ptfoil.nor
# XDI/1.0 Athena/0.9.26
# Element.edge:                  L3
# Element.symbol:                Pt
# Column.1:                      energy eV
# Column.2:                      norm
# Column.3:                      nbkg
# Column.4:                      flat
# Column.5:                      fbkg
# Column.6:                      nder
# Column.7:                      nsec
# Athena.e0:                     11564
# Athena.eshift:                 0
# Athena.rbkg:                   1.0
# Athena.importance:             1
# Athena.standard:               None
# Athena.bkg_kweight:            2
# Athena.edge_step:              2.11585
# Athena.fixed_step:             no
# Athena.pre_edge_range:         -140.000 -60.100
# Athena.pre_edge_line:          5.418181 - 0.000498899 * E
# Athena.normalization_range:    150 1667.79
# Athena.post_edge_polynomial:   17.3492 - 0.00181017 * E + 3.99952e-08 * E^2 + 0 * E^3
# Athena.spline_range_energy:    0.000 1677.644
# Athena.clamps:                 0 24
# Athena.spline_range_k:         0.000 20.984
# Athena.kweight:                2
# Athena.window:                 hanning
# Athena.phase_correction:       no
# Athena.k_range:                2 20
# Athena.dk:                     2
# Athena.r_range:                1 3
# Athena.dr:                     0.0
# Athena.window:                 hanning
# Athena.plot_multiplier:        1
# Athena.y_offset:               0
# ///
#------------------------
#   e         norm       nbkg       flat       fbkg       nder       nsec
  11413.869       0.00109319   0.00109319   0.00109319   0.00109319  -6.93728e-05   2.24518e-06
  11444.135      -2.66554e-06  -2.66552e-06  -2.66554e-06  -2.66552e-06  -2.41968e-05   2.24406e-07
  11473.936      -0.000429978  -0.000429978  -0.000429978  -0.000429978   4.38947e-06   1.1447e-06
  11503.837       0.000946512   0.000946512   0.000946512   0.000946512   0.000115266   8.03381e-06
  11534.012       0.0120508   0.0120508   0.0120508   0.0120508   0.000761392   4.84541e-05
  11537.021       0.0150819   0.0150819   0.0150819   0.0150819   0.00118016   0.000108229
  11539.974       0.0191975   0.0191975   0.0191975   0.0191975   0.0016192   0.000192753
  11542.928       0.0246354   0.0246354   0.0246354   0.0246354   0.00215431   0.000211767
  11546.000       0.0326965   0.0326965   0.0326965   0.0326965   0.00318765   0.000416751
  11548.957       0.0439562   0.0439562   0.0439562   0.0439562   0.00487774   0.000898663
  11552.032       0.0630485   0.0630485   0.0630485   0.0630485   0.00780838   0.0014421
  11555.051       0.0952435   0.0952435   0.0952435   0.0952435   0.0142267   0.00408659
  11557.955       0.159898       0.159898       0.159898       0.159898       0.0319434   0.00969404
  11560.977       0.324721       0.324721       0.324721       0.324721       0.0913698   0.0308304
  11564.116       0.831385        1.18414       0.831406        1.18416       0.211516       0.0117888
  11567.025        1.2513        1.18722        1.25185        1.18777      -0.00442093  -0.100479
  11569.993        1.08441        1.0567        1.08551        1.05779      -0.0558763   0.0186789
  11573.021       0.977683       0.983969       0.979328       0.985614      -0.023466   0.00428053
  11576.109       0.941973       0.954832       0.944181       0.95704       0.00103574   0.00831892
  11578.966       0.972111       0.952553       0.974839       0.955281       0.0129105  -0.00314649
  11581.940       0.980242       0.95944       0.983511       0.962709      -0.0121182  -0.00899389
  11584.975       0.93717       0.966057       0.940991       0.969878      -0.00797207   0.00696307
  11588.011       0.934853       0.971551       0.939225       0.975924       0.00458763   0.00356916
  11590.990       0.970863       0.975926       0.975777       0.98084       0.0202452   0.00318192
  11593.971        1.02989       0.979375        1.03534       0.98483       0.0112516  -0.00953343
  11597.012        1.01928       0.982019        1.02528       0.988025      -0.0135919  -0.00185285
  11600.054       0.98004       0.983861       0.986597       0.990418      -0.0091314   0.00353534
  11602.923       0.96497       0.984938       0.972047       0.992015      -0.00332362  -0.00115233
  11610.423       0.945778       0.985239       0.954212       0.993673       0.0051285   0.00218978
  11618.637        1.01563       0.982577        1.02555       0.992495       0.00564128  -0.00209866
  11627.745        1.00025       0.977898        1.01181       0.989458      -0.00360425   0.000182464
  11637.398       0.97319       0.973243       0.986487       0.986541      -0.00404422  -0.00050169
  11647.834       0.936436       0.969586       0.951607       0.984758      -0.000960425   0.000568278
  11658.999       0.967021       0.967025       0.984193       0.984197       0.00418804  -0.000388214
  11670.718       0.978587       0.965531       0.997854       0.984797      -0.000827446  -7.44585e-05
  11683.234       0.975616       0.964914       0.997115       0.986412       0.0013035   0.000147355
  11696.312       0.97308       0.96492       0.996904       0.988744      -0.00295041  -0.000370001
  11710.076       0.937555       0.965141       0.963818       0.991405       0.000291125   0.000471748
  11724.352       0.963987       0.965065       0.992775       0.993852       0.0016068  -0.000136721
  11739.562       0.973961       0.964428        1.00543       0.995895      -0.000359607  -1.81989e-05
  11755.595       0.983509       0.963219        1.01779       0.997502       0.000236915  -0.000416069
  11772.153       0.948158       0.961492       0.985339       0.998673      -0.00132494   0.000215636
  11789.304       0.942494       0.959303       0.982665       0.999475       0.000233479   5.96221e-05
  11807.294       0.965692       0.956698        1.00899       0.999994       0.00211019  -4.46015e-05
  11825.888       0.972076       0.953814        1.01859        1.00033      -0.00159569  -0.000157514
  11844.968       0.936996       0.950802       0.986796        1.0006      -0.000328779   0.000194554
  11865.153       0.938501       0.947623       0.991764        1.00089      -0.000635032   4.22763e-05
  11885.776       0.950517       0.944377        1.0073        1.00116       0.00113567  -1.94617e-05
  11907.151       0.950691       0.941006        1.01111        1.00142      -0.00169404  -9.63873e-05
  11929.285       0.929188       0.937498       0.993351        1.00166       0.000236293   4.60607e-05
  11951.938       0.930153       0.93388       0.998129        1.00186      -0.000488479  -6.71874e-06
  11975.303       0.935784       0.930107        1.00767        1.002       0.000337729  -5.09175e-05
  11999.513       0.935316       0.926143        1.01124        1.00206      -0.000665166  -8.5895e-05
  12024.263       0.910219       0.922033       0.990239        1.00205      -0.000225141   9.44405e-05
  12049.749       0.916337       0.917755        1.00055        1.00197       0.000279157   3.65215e-07
  12075.726       0.919753       0.913361        1.00822        1.00183      -1.37872e-05  -3.30315e-06
  12102.518       0.910085       0.908807        1.00291        1.00164      -0.000528104   1.10223e-05
  12130.200       0.897475       0.904096       0.994778        1.0014      -0.000370135   2.64105e-05
  12158.461       0.897171       0.899299       0.999014        1.00114       0.00015177   9.51946e-06
  12187.244       0.900502       0.894445        1.00694        1.00088      -4.5592e-05  -1.9663e-05
  12216.750       0.890428       0.889509        1.00154        1.00062      -0.000466545   1.18227e-05
  12247.186       0.881231       0.884461       0.997129        1.00036      -0.000303324  -8.90264e-06
  12278.104       0.875654       0.879379       0.996379        1.0001       0.000145295   2.11829e-05
  12309.774       0.880628       0.874222        1.00626       0.999855      -7.96017e-05  -2.09553e-05
  12342.009       0.868823       0.869024       0.999413       0.999613      -0.000405001   1.39324e-05
  12375.150       0.861       0.863735       0.996644       0.999378      -0.000200028   2.72503e-06
  12408.940       0.856518       0.858398       0.997273       0.999153      -5.33105e-05   5.90885e-06
  12443.121       0.856175       0.853064        1.00206       0.998944      -7.30012e-05  -1.09425e-05
  12478.172       0.849259       0.847665        1.00035       0.998756      -0.000292085  -3.13512e-06
  12513.969       0.839676       0.842234       0.996041       0.998599      -0.000177309   7.06437e-06
  12550.524       0.835504       0.836781       0.997204       0.998481      -9.03632e-05   1.34301e-06
  12587.503       0.833283       0.831367        1.00033       0.998413      -7.64959e-05  -4.5481e-06
  12625.329       0.826966       0.825946       0.999426       0.998406      -0.000190874  -2.72927e-07
  12663.875       0.819178       0.820548       0.997101       0.998471      -0.000186005   3.72896e-06
  12703.012       0.814344       0.815195       0.997755       0.998606      -6.21706e-05   2.21129e-06
  12742.819       0.810846       0.809865       0.99978       0.998799      -0.000119723  -1.19668e-06
  12783.379       0.805076       0.804537       0.999576       0.999037      -0.000141061   1.15587e-07
  12824.775       0.798522       0.799191       0.998639       0.999307      -0.000165388   1.66749e-06
  12866.587       0.793098       0.793865       0.998821       0.999589      -8.85561e-05   9.68881e-07
  12909.403       0.789087       0.788471        1.00048       0.999867      -0.000113879  -1.77561e-06
  12952.435       0.783586       0.78309        1.00061        1.00012      -0.000139644  -1.62802e-06
  12996.496       0.777341       0.777626        1.00006        1.00035      -0.000136078   3.38588e-07
  13041.232       0.771821       0.77214        1.00025        1.00057      -0.00011476   1.91268e-07
  13086.579       0.767099       0.76666        1.00124        1.0008      -0.000108104  -1.44322e-06
  13132.472       0.761481       0.761214        1.00131        1.00105      -0.000132735  -4.91882e-07
  13179.299       0.755389       0.755779        1.00095        1.00134      -0.000121285   6.80103e-07
  13226.846       0.750489       0.750407        1.00179        1.0017      -4.74619e-05   5.95256e-06
  13274.742        1.0233        1.0233        1.28028        1.28028       0.0193754  -0.000460157
  13323.532        1.19111        1.19111        1.4538        1.4538       0.00212831   0.000205059
  13331.905        1.21466        1.21466        1.47833        1.47833       0.00281267   8.17252e-05